File: graduate/数据/xrd/高森-xrd/001/001-qw-B-2024-T3.txt
# Data      [ Total No. = 4001 ]
  <2Theta>   <   I   >
    10.0000        24
    10.0600        28
    10.1200        20
    10.1800        26
    10.2400        22
    10.3000        14
    10.3600        24
    10.4200        14
    10.4800        22
    10.5400        20
    10.6000        22
    10.6600        18
    10.7200        10
    10.7800        18
    10.8400        26
    10.9000        16
    10.9600        22
    11.0200         6
    11.0800        18
    11.1400        18
    11.2000        16
    11.2600        14
    11.3200        16
    11.3800        14
    11.4400        18
    11.5000        20
    11.5600        14
    11.6200        22
    11.6800        16
    11.7400        18
    11.8000        24
    11.8600        18
    11.9200        14
    11.9800        22
    12.0400        18
    12.1000        16
    12.1600        20
    12.2200        14
    12.2800        18
    12.3400        14
    12.4000        20
    12.4600        16
    12.5200        12
    12.5800        16
    12.6400        18
    12.7000        18
    12.7600        20
    12.8200        18
    12.8800        14
    12.9400        18
    13.0000        24
    13.0600        12
    13.1200        14
    13.1800         8
    13.2400        12
    13.3000        16
    13.3600        16
    13.4200        12
    13.4800        14
    13.5400        12
    13.6000        18
    13.6600        12
    13.7200        16
    13.7800        10
    13.8400        16
    13.9000        12
    13.9600        12
    14.0200        14
    14.0800        14
    14.1400        14
    14.2000         8
    14.2600        18
    14.3200        16
    14.3800        14
    14.4400         8
    14.5000        10
    14.5600        14
    14.6200        16
    14.6800        18
    14.7400        12
    14.8000        18
    14.8600        16
    14.9200         8
    14.9800         8
    15.0400        10
    15.1000        14
    15.1600        12
    15.2200        10
    15.2800        16
    15.3400        10
    15.4000        12
    15.4600        14
    15.5200        16
    15.5800        14
    15.6400        14
    15.7000         6
    15.7600        14
    15.8200        18
    15.8800        18
    15.9400        16
    16.0000        14
    16.0600         6
    16.1200        14
    16.1800        18
    16.2400        16
    16.3000        10
    16.3600        10
    16.4200         8
    16.4800        16
    16.5400        10
    16.6000        12
    16.6600        12
    16.7200        14
    16.7800        12
    16.8400         8
    16.9000        16
    16.9600        16
    17.0200        12
    17.0800        12
    17.1400        12
    17.2000        14
    17.2600        14
    17.3200         8
    17.3800        16
    17.4400         8
    17.5000        14
    17.5600        16
    17.6200        16
    17.6800        10
    17.7400        18
    17.8000        10
    17.8600        18
    17.9200        14
    17.9800        22
    18.0400         8
    18.1000        14
    18.1600        12
    18.2200        16
    18.2800        10
    18.3400        14
    18.4000        22
    18.4600        14
    18.5200        14
    18.5800        16
    18.6400        14
    18.7000        24
    18.7600        16
    18.8200        14
    18.8800        14
    18.9400        16
    19.0000        10
    19.0600        14
    19.1200        22
    19.1800        16
    19.2400        20
    19.3000        20
    19.3600        18
    19.4200        18
    19.4800        20
    19.5400        22
    19.6000        12
    19.6600        12
    19.7200        18
    19.7800        14
    19.8400        14
    19.9000        12
    19.9600        12
    20.0200        14
    20.0800        14
    20.1400        12
    20.2000        10
    20.2600        12
    20.3200        14
    20.3800        14
    20.4400         8
    20.5000        12
    20.5600        10
    20.6200        12
    20.6800        12
    20.7400        12
    20.8000        10
    20.8600        22
    20.9200        18
    20.9800        16
    21.0400        16
    21.1000        12
    21.1600        12
    21.2200        14
    21.2800        10
    21.3400        14
    21.4000        10
    21.4600        12
    21.5200        14
    21.5800        12
    21.6400        10
    21.7000        14
    21.7600         6
    21.8200        12
    21.8800        14
    21.9400        18
    22.0000        12
    22.0600        12
    22.1200        12
    22.1800        12
    22.2400        18
    22.3000         8
    22.3600        14
    22.4200        14
    22.4800        12
    22.5400        14
    22.6000        12
    22.6600        12
    22.7200        20
    22.7800        16
    22.8400        14
    22.9000        12
    22.9600        10
    23.0200        12
    23.0800        12
    23.1400        16
    23.2000        10
    23.2600        16
    23.3200        14
    23.3800        12
    23.4400        12
    23.5000        12
    23.5600        18
    23.6200        10
    23.6800        12
    23.7400        22
    23.8000        10
    23.8600        18
    23.9200        16
    23.9800        10
    24.0400        14
    24.1000        12
    24.1600        16
    24.2200        14
    24.2800        16
    24.3400        14
    24.4000        16
    24.4600        12
    24.5200        12
    24.5800         4
    24.6400         6
    24.7000        10
    24.7600        14
    24.8200        12
    24.8800        12
    24.9400        10
    25.0000        18
    25.0600        12
    25.1200        12
    25.1800        16
    25.2400        16
    25.3000        14
    25.3600        14
    25.4200        16
    25.4800        10
    25.5400         8
    25.6000        16
    25.6600         8
    25.7200        14
    25.7800         8
    25.8400         8
    25.9000        16
    25.9600        22
    26.0200        16
    26.0800        10
    26.1400         8
    26.2000        10
    26.2600        10
    26.3200        18
    26.3800        10
    26.4400         6
    26.5000        14
    26.5600        14
    26.6200        14
    26.6800         8
    26.7400        12
    26.8000        12
    26.8600        18
    26.9200        14
    26.9800        10
    27.0400        14
    27.1000         4
    27.1600        12
    27.2200        18
    27.2800        10
    27.3400        10
    27.4000         8
    27.4600        14
    27.5200        16
    27.5800        16
    27.6400         6
    27.7000        18
    27.7600        10
    27.8200        14
    27.8800        10
    27.9400        18
    28.0000        10
    28.0600        10
    28.1200        16
    28.1800        12
    28.2400        10
    28.3000        12
    28.3600        10
    28.4200        14
    28.4800        16
    28.5400         8
    28.6000        16
    28.6600         8
    28.7200         6
    28.7800        12
    28.8400        12
    28.9000         6
    28.9600        12
    29.0200         8
    29.0800        12
    29.1400        14
    29.2000        12
    29.2600        12
    29.3200        14
    29.3800        12
    29.4400        10
    29.5000        12
    29.5600        14
    29.6200        18
    29.6800        18
    29.7400        10
    29.8000        16
    29.8600         8
    29.9200        12
    29.9800        16
    30.0400        22
    30.1000        12
    30.1600        16
    30.2200         8
    30.2800        14
    30.3400        16
    30.4000        12
    30.4600        12
    30.5200        12
    30.5800        14
    30.6400        18
    30.7000        16
    30.7600        22
    30.8200        22
    30.8800        22
    30.9400        26
    31.0000        26
    31.0600        14
    31.1200        20
    31.1800        24
    31.2400        14
    31.3000        16
    31.3600        14
    31.4200        12
    31.4800        12
    31.5400        10
    31.6000        10
    31.6600        18
    31.7200        30
    31.7800        20
    31.8400        16
    31.9000        30
    31.9600        24
    32.0200        10
    32.0800        14
    32.1400        22
    32.2000        12
    32.2600        16
    32.3200         6
    32.3800        12
    32.4400        14
    32.5000        10
    32.5600        10
    32.6200        20
    32.6800        18
    32.7400        18
    32.8000        18
    32.8600        10
    32.9200        16
    32.9800        12
    33.0400        12
    33.1000        16
    33.1600        14
    33.2200        24
    33.2800        10
    33.3400        20
    33.4000        20
    33.4600        18
    33.5200        16
    33.5800        30
    33.6400        18
    33.7000        16
    33.7600        12
    33.8200        10
    33.8800        14
    33.9400        18
    34.0000        14
    34.0600         8
    34.1200        12
    34.1800        12
    34.2400        14
    34.3000        14
    34.3600        18
    34.4200        16
    34.4800        20
    34.5400        20
    34.6000         4
    34.6600        12
    34.7200        12
    34.7800        12
    34.8400         8
    34.9000        12
    34.9600        10
    35.0200        12
    35.0800        20
    35.1400        22
    35.2000        12
    35.2600        10
    35.3200        16
    35.3800        18
    35.4400        18
    35.5000        22
    35.5600        16
    35.6200        18
    35.6800        24
    35.7400        20
    35.8000        22
    35.8600        18
    35.9200        18
    35.9800        24
    36.0400        22
    36.1000        22
    36.1600        28
    36.2200        40
    36.2800        44
    36.3400        32
    36.4000        24
    36.4600        36
    36.5200        36
    36.5800        30
    36.6400        40
    36.7000        28
    36.7600        26
    36.8200        32
    36.8800        22
    36.9400        28
    37.0000        34
    37.0600        28
    37.1200        28
    37.1800        28
    37.2400        30
    37.3000        34
    37.3600        36
    37.4200        36
    37.4800        54
    37.5400        56
    37.6000        58
    37.6600        52
    37.7200        44
    37.7800        48
    37.8400        32
    37.9000        32
    37.9600        24
    38.0200        34
    38.0800        32
    38.1400        38
    38.2000        52
    38.2600        98
    38.3200       182
    38.3800       310
    38.4400       374
    38.5000       392
    38.5600       394
    38.6200       266
    38.6800       142
    38.7400        68
    38.8000        46
    38.8600        36
    38.9200        36
    38.9800        34
    39.0400        18
    39.1000        30
    39.1600        22
    39.2200        10
    39.2800        18
    39.3400        10
    39.4000        26
    39.4600        20
    39.5200        22
    39.5800        20
    39.6400        12
    39.7000        18
    39.7600        22
    39.8200        14
    39.8800        12
    39.9400        16
    40.0000        12
    40.0600        12
    40.1200        20
    40.1800        24
    40.2400        22
    40.3000        16
    40.3600        22
    40.4200         8
    40.4800        22
    40.5400        16
    40.6000        14
    40.6600        16
    40.7200        18
    40.7800        16
    40.8400        18
    40.9000        16
    40.9600        18
    41.0200        18
    41.0800        12
    41.1400        18
    41.2000        22
    41.2600        14
    41.3200        20
    41.3800        20
    41.4400        14
    41.5000        24
    41.5600        12
    41.6200        18
    41.6800        22
    41.7400        22
    41.8000        20
    41.8600        18
    41.9200        16
    41.9800        22
    42.0400        16
    42.1000        24
    42.1600        22
    42.2200        18
    42.2800        14
    42.3400        22
    42.4000        16
    42.4600        20
    42.5200        26
    42.5800        26
    42.6400        26
    42.7000        22
    42.7600        22
    42.8200        28
    42.8800        28
    42.9400        24
    43.0000        22
    43.0600        26
    43.1200        24
    43.1800        24
    43.2400        28
    43.3000        30
    43.3600        24
    43.4200        32
    43.4800        34
    43.5400        28
    43.6000        32
    43.6600        34
    43.7200        44
    43.7800        36
    43.8400        54
    43.9000        44
    43.9600        58
    44.0200        60
    44.0800        54
    44.1400        70
    44.2000        66
    44.2600        82
    44.3200        68
    44.3800        88
    44.4400        98
    44.5000       108
    44.5600       146
    44.6200       200
    44.6800       230
    44.7400       222
    44.8000       214
    44.8600       146
    44.9200       120
    44.9800        84
    45.0400        62
    45.1000        34
    45.1600        30
    45.2200        34
    45.2800        34
    45.3400        22
    45.4000        34
    45.4600        34
    45.5200        42
    45.5800        46
    45.6400        48
    45.7000        46
    45.7600        44
    45.8200        42
    45.8800        38
    45.9400        22
    46.0000        24
    46.0600        24
    46.1200        16
    46.1800        12
    46.2400        14
    46.3000        18
    46.3600        10
    46.4200        12
    46.4800         6
    46.5400        12
    46.6000        14
    46.6600        12
    46.7200        20
    46.7800        14
    46.8400        14
    46.9000        14
    46.9600        16
    47.0200        14
    47.0800        18
    47.1400        14
    47.2000        12
    47.2600         6
    47.3200        12
    47.3800        12
    47.4400         6
    47.5000        16
    47.5600         8
    47.6200        12
    47.6800        14
    47.7400        10
    47.8000        20
    47.8600        10
    47.9200        12
    47.9800         6
    48.0400        14
    48.1000        18
    48.1600        14
    48.2200        14
    48.2800        12
    48.3400         8
    48.4000         8
    48.4600        12
    48.5200        12
    48.5800         6
    48.6400        16
    48.7000        14
    48.7600        18
    48.8200        14
    48.8800        10
    48.9400        12
    49.0000        12
    49.0600         6
    49.1200        10
    49.1800         8
    49.2400         4
    49.3000        20
    49.3600        12
    49.4200        14
    49.4800         6
    49.5400        18
    49.6000        10
    49.6600        10
    49.7200        20
    49.7800        10
    49.8400        12
    49.9000        14
    49.9600         8
    50.0200        10
    50.0800        10
    50.1400        16
    50.2000        18
    50.2600        10
    50.3200        12
    50.3800        10
    50.4400         8
    50.5000         8
    50.5600         6
    50.6200        10
    50.6800        10
    50.7400         8
    50.8000         8
    50.8600         8
    50.9200        18
    50.9800         4
    51.0400        10
    51.1000        18
    51.1600        12
    51.2200         4
    51.2800         8
    51.3400        12
    51.4000         8
    51.4600        14
    51.5200         6
    51.5800         8
    51.6400        10
    51.7000        14
    51.7600        12
    51.8200        10
    51.8800        12
    51.9400        16
    52.0000        16
    52.0600         8
    52.1200         8
    52.1800        12
    52.2400        14
    52.3000        10
    52.3600        12
    52.4200        12
    52.4800        12
    52.5400         4
    52.6000         2
    52.6600        12
    52.7200         8
    52.7800        10
    52.8400        10
    52.9000        10
    52.9600         6
    53.0200         6
    53.0800        12
    53.1400        14
    53.2000         6
    53.2600        14
    53.3200         8
    53.3800        18
    53.4400         6
    53.5000        12
    53.5600         6
    53.6200        10
    53.6800         6
    53.7400        10
    53.8000        10
    53.8600        10
    53.9200         6
    53.9800        14
    54.0400        12
    54.1000        12
    54.1600        12
    54.2200         6
    54.2800        12
    54.3400        10
    54.4000        10
    54.4600        10
    54.5200        14
    54.5800        12
    54.6400        12
    54.7000         6
    54.7600         6
    54.8200        12
    54.8800        14
    54.9400        10
    55.0000        12
    55.0600         6
    55.1200        14
    55.1800        16
    55.2400        10
    55.3000        12
    55.3600        16
    55.4200        16
    55.4800         8
    55.5400        10
    55.6000        14
    55.6600         8
    55.7200         8
    55.7800         6
    55.8400        12
    55.9000         8
    55.9600         8
    56.0200         8
    56.0800        12
    56.1400        18
    56.2000        18
    56.2600        12
    56.3200        16
    56.3800         2
    56.4400        10
    56.5000        14
    56.5600         8
    56.6200         8
    56.6800        12
    56.7400        18
    56.8000        14
    56.8600        14
    56.9200        10
    56.9800        12
    57.0400         8
    57.1000         8
    57.1600        20
    57.2200         8
    57.2800        14
    57.3400        16
    57.4000        16
    57.4600        12
    57.5200        12
    57.5800        14
    57.6400        10
    57.7000         8
    57.7600        14
    57.8200        10
    57.8800         6
    57.9400        10
    58.0000        12
    58.0600        14
    58.1200        18
    58.1800        14
    58.2400        12
    58.3000        16
    58.3600        16
    58.4200        10
    58.4800        12
    58.5400        14
    58.6000        18
    58.6600        10
    58.7200        26
    58.7800        18
    58.8400        12
    58.9000        16
    58.9600        12
    59.0200         8
    59.0800        12
    59.1400         6
    59.2000        10
    59.2600        12
    59.3200        10
    59.3800        18
    59.4400        12
    59.5000        18
    59.5600        16
    59.6200        12
    59.6800         6
    59.7400        20
    59.8000        18
    59.8600         8
    59.9200        12
    59.9800        14
    60.0400        16
    60.1000        12
    60.1600        18
    60.2200        20
    60.2800        20
    60.3400        18
    60.4000        24
    60.4600        16
    60.5200        22
    60.5800        20
    60.6400        18
    60.7000        14
    60.7600        16
    60.8200        14
    60.8800        14
    60.9400        12
    61.0000        18
    61.0600        16
    61.1200         8
    61.1800        18
    61.2400        10
    61.3000        14
    61.3600         6
    61.4200        12
    61.4800         6
    61.5400         8
    61.6000        12
    61.6600         6
    61.7200         6
    61.7800        12
    61.8400         8
    61.9000        12
    61.9600        12
    62.0200         8
    62.0800         6
    62.1400         8
    62.2000        10
    62.2600        10
    62.3200        12
    62.3800         8
    62.4400         8
    62.5000         6
    62.5600        10
    62.6200        16
    62.6800        12
    62.7400        10
    62.8000        10
    62.8600        14
    62.9200         6
    62.9800        10
    63.0400        16
    63.1000        12
    63.1600        12
    63.2200        18
    63.2800        10
    63.3400        18
    63.4000        22
    63.4600        12
    63.5200        16
    63.5800        16
    63.6400        16
    63.7000        14
    63.7600         8
    63.8200        16
    63.8800        16
    63.9400        16
    64.0000        16
    64.0600        14
    64.1200        22
    64.1800        18
    64.2400        28
    64.3000        30
    64.3600        26
    64.4200        20
    64.4800        28
    64.5400        30
    64.6000        36
    64.6600        30
    64.7200        32
    64.7800        44
    64.8400        54
    64.9000        74
    64.9600       122
    65.0200       120
    65.0800       122
    65.1400        94
    65.2000       124
    65.2600        76
    65.3200        70
    65.3800        58
    65.4400        54
    65.5000        34
    65.5600        22
    65.6200        28
    65.6800        18
    65.7400        18
    65.8000        18
    65.8600        22
    65.9200        12
    65.9800        22
    66.0400        20
    66.1000        16
    66.1600        18
    66.2200        24
    66.2800        22
    66.3400        28
    66.4000        20
    66.4600        30
    66.5200        20
    66.5800        34
    66.6400        28
    66.7000        28
    66.7600        28
    66.8200        16
    66.8800        18
    66.9400        14
    67.0000         8
    67.0600        18
    67.1200        18
    67.1800        12
    67.2400        18
    67.3000        14
    67.3600        14
    67.4200        16
    67.4800        18
    67.5400        10
    67.6000        10
    67.6600        14
    67.7200        10
    67.7800         8
    67.8400        12
    67.9000        10
    67.9600        20
    68.0200        10
    68.0800        10
    68.1400        14
    68.2000        12
    68.2600        20
    68.3200         8
    68.3800        12
    68.4400        10
    68.5000         8
    68.5600         6
    68.6200         8
    68.6800        12
    68.7400        14
    68.8000        16
    68.8600        12
    68.9200         8
    68.9800        14
    69.0400        14
    69.1000        12
    69.1600        18
    69.2200         6
    69.2800        12
    69.3400        10
    69.4000        10
    69.4600        16
    69.5200        12
    69.5800        12
    69.6400        12
    69.7000         6
    69.7600         8
    69.8200        12
    69.8800         8
    69.9400        12
    70.0000        14
    70.0600         4
    70.1200        16
    70.1800         6
    70.2400         8
    70.3000         6
    70.3600        10
    70.4200         8
    70.4800        14
    70.5400        12
    70.6000        10
    70.6600         6
    70.7200        18
    70.7800        14
    70.8400        10
    70.9000         4
    70.9600        10
    71.0200        10
    71.0800         4
    71.1400         8
    71.2000        10
    71.2600         8
    71.3200         4
    71.3800        10
    71.4400         6
    71.5000        10
    71.5600        16
    71.6200         8
    71.6800        14
    71.7400         4
    71.8000         8
    71.8600        10
    71.9200        16
    71.9800        14
    72.0400        14
    72.1000        12
    72.1600        12
    72.2200        14
    72.2800        12
    72.3400        10
    72.4000        10
    72.4600        10
    72.5200        18
    72.5800        12
    72.6400        14
    72.7000        16
    72.7600        12
    72.8200        12
    72.8800         8
    72.9400        18
    73.0000         6
    73.0600        18
    73.1200        16
    73.1800         8
    73.2400        14
    73.3000        14
    73.3600        14
    73.4200        16
    73.4800        12
    73.5400         8
    73.6000        12
    73.6600         8
    73.7200        16
    73.7800        12
    73.8400        12
    73.9000         6
    73.9600        16
    74.0200        12
    74.0800        16
    74.1400        14
    74.2000         6
    74.2600        16
    74.3200         8
    74.3800        10
    74.4400        12
    74.5000        10
    74.5600         6
    74.6200        14
    74.6800        18
    74.7400         6
    74.8000        14
    74.8600         8
    74.9200        10
    74.9800        10
    75.0400         8
    75.1000         8
    75.1600        10
    75.2200        12
    75.2800        12
    75.3400        12
    75.4000        14
    75.4600        18
    75.5200         6
    75.5800        16
    75.6400        18
    75.7000        10
    75.7600        12
    75.8200         8
    75.8800        20
    75.9400        22
    76.0000        16
    76.0600        16
    76.1200        12
    76.1800        14
    76.2400        12
    76.3000        12
    76.3600        14
    76.4200        12
    76.4800        12
    76.5400        18
    76.6000        12
    76.6600        16
    76.7200        20
    76.7800        14
    76.8400        14
    76.9000        12
    76.9600        16
    77.0200        14
    77.0800         8
    77.1400        12
    77.2000        18
    77.2600        10
    77.3200        10
    77.3800         6
    77.4400        14
    77.5000        12
    77.5600        14
    77.6200        24
    77.6800        26
    77.7400        20
    77.8000        46
    77.8600        36
    77.9200        58
    77.9800        74
    78.0400        96
    78.1000        96
    78.1600       112
    78.2200       132
    78.2800       102
    78.3400       114
    78.4000        94
    78.4600        94
    78.5200        44
    78.5800        48
    78.6400        38
    78.7000        32
    78.7600        14
    78.8200        28
    78.8800        22
    78.9400        22
    79.0000        12
    79.0600        14
    79.1200        22
    79.1800        18
    79.2400        18
    79.3000        16
    79.3600        18
    79.4200        12
    79.4800        12
    79.5400        14
    79.6000        10
    79.6600        20
    79.7200        14
    79.7800        10
    79.8400        12
    79.9000        14
    79.9600        10
    80.0200        10
    80.0800         8
    80.1400        14
    80.2000         8
    80.2600        10
    80.3200        10
    80.3800        16
    80.4400        14
    80.5000         8
    80.5600        14
    80.6200        18
    80.6800        14
    80.7400        14
    80.8000        20
    80.8600        16
    80.9200        10
    80.9800        18
    81.0400        20
    81.1000        14
    81.1600        18
    81.2200        14
    81.2800        14
    81.3400        32
    81.4000        22
    81.4600        16
    81.5200        20
    81.5800        10
    81.6400        12
    81.7000        12
    81.7600        12
    81.8200        16
    81.8800        18
    81.9400        12
    82.0000        16
    82.0600        18
    82.1200        32
    82.1800        30
    82.2400        38
    82.3000        44
    82.3600        52
    82.4200        42
    82.4800        44
    82.5400        50
    82.6000        32
    82.6600        40
    82.7200        34
    82.7800        20
    82.8400        16
    82.9000        20
    82.9600        14
    83.0200        12
    83.0800        10
    83.1400        12
    83.2000        10
    83.2600         8
    83.3200         6
    83.3800        14
    83.4400        10
    83.5000        12
    83.5600         6
    83.6200         8
    83.6800         4
    83.7400        12
    83.8000         8
    83.8600         6
    83.9200        18
    83.9800         4
    84.0400        10
    84.1000        14
    84.1600        12
    84.2200        10
    84.2800        10
    84.3400        14
    84.4000         8
    84.4600         8
    84.5200         8
    84.5800         8
    84.6400        16
    84.7000         8
    84.7600         6
    84.8200        14
    84.8800        12
    84.9400        12
    85.0000         8
    85.0600        14
    85.1200        12
    85.1800         2
    85.2400         8
    85.3000         4
    85.3600         6
    85.4200        16
    85.4800        10
    85.5400         6
    85.6000        10
    85.6600         4
    85.7200         4
    85.7800         6
    85.8400         8
    85.9000        12
    85.9600        14
    86.0200         8
    86.0800        10
    86.1400         8
    86.2000        12
    86.2600        14
    86.3200         8
    86.3800        10
    86.4400        12
    86.5000         8
    86.5600         8
    86.6200        10
    86.6800        14
    86.7400        12
    86.8000         8
    86.8600         6
    86.9200         8
    86.9800         8
    87.0400        12
    87.1000         8
    87.1600         6
    87.2200         8
    87.2800        10
    87.3400         8
    87.4000        10
    87.4600        12
    87.5200         8
    87.5800        10
    87.6400        10
    87.7000         8
    87.7600        16
    87.8200         8
    87.8800        12
    87.9400         8
    88.0000        12
    88.0600         4
    88.1200        10
    88.1800         6
    88.2400        10
    88.3000         6
    88.3600        12
    88.4200        10
    88.4800        10
    88.5400         2
    88.6000        12
    88.6600         8
    88.7200        14
    88.7800         6
    88.8400         8
    88.9000        10
    88.9600         8
    89.0200         4
    89.0800        10
    89.1400         8
    89.2000        10
    89.2600         8
    89.3200        10
    89.3800         8
    89.4400        10
    89.5000        14
    89.5600         6
    89.6200        10
    89.6800         6
    89.7400        12
    89.8000        12
    89.8600         8
    89.9200        14
    89.9800        14
    90.0000         8