File: graduate/数据/xrd/高森-xrd/005/005-lyx-B-2024-T4.txt
# Data      [ Total No. = 4001 ]
  <2Theta>   <   I   >
    10.0000        18
    10.0600        16
    10.1200        16
    10.1800        16
    10.2400        22
    10.3000        18
    10.3600        20
    10.4200        18
    10.4800        18
    10.5400        12
    10.6000        14
    10.6600        16
    10.7200        24
    10.7800        24
    10.8400        20
    10.9000        14
    10.9600        20
    11.0200        18
    11.0800        12
    11.1400        12
    11.2000        16
    11.2600        16
    11.3200        16
    11.3800        18
    11.4400        10
    11.5000        16
    11.5600        20
    11.6200        20
    11.6800        24
    11.7400        14
    11.8000        16
    11.8600        20
    11.9200        12
    11.9800        14
    12.0400        10
    12.1000        10
    12.1600        16
    12.2200        24
    12.2800        20
    12.3400        16
    12.4000        10
    12.4600        14
    12.5200        18
    12.5800        16
    12.6400        20
    12.7000        14
    12.7600        16
    12.8200        14
    12.8800        14
    12.9400        14
    13.0000        10
    13.0600        14
    13.1200        12
    13.1800        22
    13.2400        20
    13.3000        16
    13.3600        14
    13.4200        16
    13.4800        22
    13.5400        24
    13.6000        18
    13.6600        22
    13.7200        18
    13.7800        14
    13.8400        10
    13.9000        14
    13.9600        18
    14.0200        10
    14.0800        18
    14.1400         8
    14.2000        16
    14.2600        12
    14.3200        14
    14.3800        22
    14.4400        14
    14.5000        20
    14.5600        10
    14.6200        18
    14.6800        12
    14.7400        12
    14.8000        12
    14.8600        10
    14.9200        10
    14.9800        16
    15.0400        10
    15.1000        10
    15.1600        20
    15.2200        12
    15.2800        16
    15.3400         8
    15.4000        20
    15.4600        10
    15.5200        18
    15.5800        16
    15.6400        16
    15.7000        10
    15.7600        12
    15.8200        18
    15.8800        12
    15.9400        14
    16.0000        12
    16.0600        14
    16.1200        10
    16.1800        10
    16.2400         8
    16.3000         8
    16.3600        16
    16.4200        10
    16.4800        10
    16.5400        12
    16.6000        10
    16.6600        16
    16.7200        12
    16.7800        14
    16.8400        20
    16.9000        16
    16.9600        18
    17.0200        10
    17.0800        10
    17.1400        10
    17.2000        12
    17.2600        14
    17.3200        16
    17.3800        10
    17.4400        14
    17.5000        18
    17.5600        14
    17.6200        10
    17.6800        18
    17.7400        20
    17.8000         8
    17.8600        14
    17.9200        16
    17.9800        22
    18.0400        10
    18.1000        20
    18.1600        12
    18.2200         8
    18.2800        20
    18.3400        14
    18.4000        16
    18.4600        12
    18.5200         8
    18.5800        16
    18.6400        16
    18.7000        18
    18.7600        18
    18.8200        14
    18.8800        12
    18.9400        16
    19.0000        18
    19.0600        22
    19.1200        20
    19.1800        14
    19.2400        26
    19.3000        32
    19.3600        20
    19.4200        20
    19.4800        18
    19.5400        22
    19.6000        20
    19.6600        14
    19.7200        18
    19.7800        18
    19.8400        20
    19.9000        20
    19.9600        10
    20.0200        14
    20.0800        16
    20.1400        14
    20.2000        18
    20.2600        12
    20.3200        28
    20.3800        14
    20.4400        14
    20.5000        16
    20.5600         8
    20.6200        14
    20.6800        16
    20.7400        12
    20.8000         8
    20.8600        12
    20.9200        10
    20.9800         8
    21.0400        12
    21.1000        12
    21.1600        28
    21.2200        20
    21.2800        10
    21.3400        10
    21.4000        16
    21.4600        14
    21.5200        16
    21.5800        14
    21.6400        18
    21.7000        12
    21.7600        20
    21.8200        14
    21.8800        14
    21.9400        12
    22.0000        10
    22.0600        14
    22.1200        16
    22.1800        18
    22.2400        10
    22.3000        12
    22.3600        20
    22.4200        20
    22.4800        20
    22.5400        18
    22.6000        10
    22.6600        12
    22.7200        12
    22.7800        16
    22.8400         6
    22.9000        14
    22.9600        18
    23.0200        22
    23.0800        10
    23.1400        20
    23.2000        20
    23.2600        12
    23.3200        12
    23.3800        18
    23.4400        12
    23.5000        10
    23.5600        12
    23.6200        10
    23.6800         8
    23.7400        12
    23.8000        18
    23.8600        20
    23.9200        16
    23.9800         8
    24.0400         6
    24.1000        16
    24.1600         6
    24.2200        20
    24.2800        16
    24.3400         8
    24.4000        14
    24.4600        10
    24.5200        12
    24.5800        10
    24.6400        10
    24.7000        14
    24.7600         6
    24.8200        14
    24.8800        10
    24.9400        14
    25.0000        12
    25.0600        14
    25.1200        16
    25.1800        10
    25.2400        14
    25.3000        14
    25.3600        12
    25.4200        10
    25.4800        10
    25.5400        14
    25.6000         8
    25.6600        20
    25.7200        10
    25.7800         6
    25.8400        16
    25.9000        14
    25.9600        12
    26.0200        12
    26.0800        14
    26.1400        10
    26.2000        18
    26.2600         8
    26.3200         8
    26.3800        14
    26.4400        14
    26.5000        20
    26.5600        18
    26.6200        20
    26.6800        10
    26.7400        14
    26.8000        14
    26.8600        16
    26.9200        12
    26.9800        10
    27.0400        16
    27.1000        16
    27.1600        16
    27.2200        14
    27.2800        10
    27.3400        14
    27.4000        12
    27.4600        16
    27.5200        14
    27.5800        18
    27.6400        16
    27.7000        16
    27.7600         6
    27.8200        14
    27.8800        12
    27.9400        10
    28.0000        10
    28.0600         6
    28.1200        12
    28.1800        14
    28.2400        16
    28.3000        16
    28.3600        14
    28.4200        12
    28.4800        10
    28.5400         6
    28.6000        18
    28.6600        14
    28.7200        10
    28.7800        14
    28.8400        12
    28.9000        14
    28.9600        16
    29.0200         4
    29.0800        10
    29.1400        14
    29.2000        24
    29.2600        14
    29.3200        10
    29.3800         8
    29.4400         8
    29.5000        16
    29.5600        14
    29.6200         8
    29.6800        14
    29.7400        14
    29.8000        14
    29.8600        12
    29.9200        16
    29.9800        16
    30.0400        20
    30.1000        16
    30.1600        10
    30.2200        12
    30.2800         6
    30.3400        14
    30.4000        20
    30.4600        18
    30.5200        16
    30.5800        16
    30.6400        10
    30.7000        18
    30.7600        18
    30.8200        12
    30.8800        12
    30.9400        16
    31.0000        24
    31.0600        18
    31.1200        16
    31.1800        20
    31.2400        26
    31.3000        20
    31.3600        14
    31.4200        20
    31.4800        28
    31.5400        24
    31.6000        26
    31.6600        42
    31.7200        48
    31.7800        46
    31.8400        40
    31.9000        48
    31.9600        34
    32.0200        30
    32.0800        16
    32.1400        16
    32.2000        20
    32.2600        16
    32.3200        22
    32.3800        18
    32.4400        22
    32.5000        12
    32.5600        18
    32.6200        16
    32.6800        18
    32.7400        16
    32.8000        16
    32.8600        16
    32.9200        30
    32.9800        30
    33.0400        40
    33.1000        42
    33.1600        48
    33.2200        56
    33.2800        66
    33.3400        52
    33.4000        46
    33.4600        50
    33.5200        38
    33.5800        38
    33.6400        44
    33.7000        44
    33.7600        38
    33.8200        34
    33.8800        42
    33.9400        30
    34.0000        32
    34.0600        26
    34.1200        26
    34.1800        28
    34.2400        22
    34.3000        26
    34.3600        26
    34.4200        30
    34.4800        30
    34.5400        22
    34.6000        28
    34.6600        32
    34.7200        28
    34.7800        22
    34.8400        28
    34.9000        22
    34.9600        30
    35.0200        18
    35.0800        30
    35.1400        24
    35.2000        20
    35.2600        18
    35.3200        22
    35.3800        20
    35.4400        20
    35.5000        22
    35.5600        28
    35.6200        24
    35.6800        24
    35.7400        30
    35.8000        32
    35.8600        36
    35.9200        32
    35.9800        34
    36.0400        48
    36.1000        46
    36.1600        60
    36.2200        52
    36.2800        48
    36.3400        34
    36.4000        48
    36.4600        30
    36.5200        40
    36.5800        42
    36.6400        34
    36.7000        34
    36.7600        42
    36.8200        34
    36.8800        36
    36.9400        36
    37.0000        48
    37.0600        52
    37.1200        50
    37.1800        50
    37.2400        82
    37.3000        86
    37.3600       140
    37.4200       138
    37.4800       152
    37.5400       140
    37.6000        90
    37.6600        74
    37.7200        64
    37.7800        62
    37.8400        68
    37.9000        74
    37.9600        80
    38.0200        74
    38.0800        66
    38.1400        62
    38.2000        84
    38.2600       108
    38.3200       128
    38.3800       168
    38.4400       164
    38.5000       178
    38.5600       112
    38.6200        78
    38.6800        62
    38.7400        30
    38.8000        38
    38.8600        36
    38.9200        28
    38.9800        22
    39.0400        30
    39.1000        34
    39.1600        34
    39.2200        32
    39.2800        22
    39.3400        32
    39.4000        28
    39.4600        24
    39.5200        26
    39.5800        34
    39.6400        62
    39.7000        48
    39.7600        66
    39.8200        50
    39.8800        52
    39.9400        30
    40.0000        42
    40.0600        66
    40.1200        60
    40.1800       104
    40.2400       134
    40.3000       184
    40.3600       218
    40.4200       178
    40.4800       132
    40.5400        82
    40.6000        58
    40.6600        58
    40.7200        40
    40.7800        36
    40.8400        42
    40.9000        34
    40.9600        24
    41.0200        36
    41.0800        34
    41.1400        28
    41.2000        34
    41.2600        18
    41.3200        20
    41.3800        22
    41.4400        26
    41.5000        32
    41.5600        28
    41.6200        20
    41.6800        26
    41.7400        36
    41.8000        28
    41.8600        28
    41.9200        22
    41.9800        26
    42.0400        30
    42.1000        18
    42.1600        26
    42.2200        34
    42.2800        26
    42.3400        22
    42.4000        14
    42.4600        24
    42.5200        26
    42.5800        22
    42.6400        24
    42.7000        22
    42.7600        18
    42.8200        22
    42.8800        32
    42.9400        38
    43.0000        38
    43.0600        22
    43.1200        40
    43.1800        42
    43.2400        50
    43.3000        52
    43.3600        26
    43.4200        26
    43.4800        30
    43.5400        30
    43.6000        22
    43.6600        22
    43.7200        24
    43.7800        30
    43.8400        26
    43.9000        20
    43.9600        24
    44.0200        28
    44.0800        26
    44.1400        32
    44.2000        24
    44.2600        22
    44.3200        42
    44.3800        74
    44.4400        80
    44.5000        92
    44.5600       116
    44.6200       134
    44.6800       120
    44.7400        86
    44.8000        98
    44.8600        78
    44.9200        54
    44.9800        38
    45.0400        36
    45.1000        32
    45.1600        30
    45.2200        36
    45.2800        38
    45.3400        48
    45.4000        58
    45.4600        72
    45.5200        80
    45.5800        84
    45.6400        88
    45.7000        72
    45.7600        62
    45.8200        48
    45.8800        20
    45.9400        24
    46.0000        26
    46.0600        18
    46.1200        18
    46.1800        18
    46.2400        22
    46.3000        18
    46.3600        16
    46.4200        10
    46.4800        12
    46.5400        12
    46.6000        10
    46.6600        12
    46.7200        10
    46.7800        10
    46.8400        22
    46.9000        14
    46.9600        18
    47.0200        16
    47.0800        18
    47.1400        18
    47.2000        10
    47.2600        12
    47.3200        12
    47.3800        20
    47.4400        14
    47.5000        10
    47.5600        12
    47.6200        16
    47.6800         8
    47.7400        12
    47.8000        12
    47.8600        12
    47.9200        10
    47.9800        10
    48.0400        12
    48.1000         8
    48.1600        14
    48.2200        14
    48.2800         8
    48.3400        10
    48.4000        10
    48.4600        12
    48.5200        10
    48.5800        10
    48.6400        14
    48.7000        10
    48.7600        22
    48.8200        12
    48.8800        16
    48.9400        12
    49.0000        14
    49.0600        10
    49.1200        14
    49.1800        14
    49.2400        16
    49.3000        12
    49.3600        18
    49.4200        18
    49.4800        12
    49.5400        24
    49.6000        24
    49.6600        14
    49.7200        20
    49.7800        26
    49.8400        26
    49.9000        22
    49.9600        14
    50.0200        28
    50.0800        14
    50.1400        22
    50.2000        20
    50.2600        10
    50.3200        14
    50.3800        10
    50.4400        16
    50.5000        12
    50.5600        14
    50.6200        18
    50.6800        22
    50.7400        16
    50.8000         6
    50.8600        12
    50.9200         6
    50.9800        12
    51.0400        12
    51.1000        12
    51.1600        10
    51.2200        10
    51.2800        10
    51.3400        16
    51.4000        12
    51.4600        10
    51.5200        16
    51.5800         4
    51.6400         8
    51.7000        16
    51.7600        20
    51.8200        12
    51.8800         8
    51.9400        10
    52.0000        14
    52.0600         8
    52.1200        10
    52.1800        14
    52.2400        10
    52.3000        16
    52.3600         8
    52.4200        18
    52.4800        20
    52.5400        14
    52.6000        12
    52.6600        10
    52.7200        14
    52.7800        12
    52.8400        14
    52.9000        12
    52.9600        14
    53.0200        10
    53.0800        12
    53.1400        12
    53.2000        12
    53.2600         4
    53.3200        16
    53.3800        12
    53.4400         6
    53.5000        14
    53.5600        10
    53.6200         8
    53.6800         8
    53.7400        14
    53.8000        10
    53.8600        16
    53.9200        12
    53.9800         4
    54.0400        22
    54.1000        10
    54.1600         6
    54.2200        18
    54.2800        18
    54.3400        20
    54.4000        12
    54.4600        18
    54.5200        18
    54.5800        14
    54.6400        16
    54.7000        12
    54.7600         6
    54.8200        14
    54.8800        12
    54.9400        10
    55.0000        10
    55.0600        14
    55.1200        16
    55.1800        14
    55.2400         8
    55.3000        12
    55.3600        10
    55.4200        10
    55.4800         8
    55.5400        14
    55.6000        10
    55.6600        14
    55.7200        10
    55.7800        16
    55.8400        10
    55.9000        12
    55.9600        14
    56.0200        16
    56.0800        18
    56.1400        12
    56.2000        12
    56.2600        12
    56.3200        18
    56.3800        18
    56.4400        16
    56.5000        18
    56.5600        24
    56.6200        18
    56.6800        30
    56.7400        26
    56.8000        18
    56.8600        16
    56.9200        16
    56.9800        18
    57.0400        12
    57.1000        16
    57.1600         8
    57.2200         8
    57.2800        14
    57.3400        14
    57.4000        14
    57.4600        14
    57.5200        22
    57.5800        20
    57.6400        10
    57.7000        16
    57.7600        10
    57.8200        14
    57.8800        14
    57.9400        16
    58.0000        12
    58.0600        18
    58.1200        26
    58.1800        18
    58.2400        30
    58.3000        24
    58.3600        18
    58.4200        34
    58.4800        26
    58.5400        22
    58.6000        24
    58.6600        26
    58.7200        14
    58.7800        18
    58.8400        22
    58.9000        16
    58.9600        20
    59.0200        10
    59.0800        16
    59.1400        24
    59.2000        20
    59.2600        26
    59.3200        28
    59.3800        30
    59.4400        44
    59.5000        32
    59.5600        36
    59.6200        28
    59.6800        30
    59.7400        28
    59.8000        26
    59.8600        34
    59.9200        26
    59.9800        30
    60.0400        30
    60.1000        30
    60.1600        38
    60.2200        46
    60.2800        42
    60.3400        48
    60.4000        50
    60.4600        48
    60.5200        48
    60.5800        56
    60.6400        36
    60.7000        22
    60.7600        22
    60.8200        26
    60.8800        12
    60.9400         8
    61.0000        18
    61.0600        18
    61.1200        14
    61.1800        18
    61.2400        20
    61.3000        16
    61.3600        20
    61.4200        14
    61.4800        14
    61.5400        10
    61.6000        12
    61.6600        12
    61.7200        14
    61.7800        14
    61.8400        16
    61.9000        14
    61.9600        24
    62.0200        16
    62.0800        22
    62.1400        12
    62.2000        14
    62.2600        14
    62.3200        14
    62.3800        14
    62.4400        16
    62.5000        14
    62.5600        16
    62.6200        16
    62.6800        10
    62.7400        16
    62.8000        14
    62.8600        12
    62.9200        14
    62.9800         8
    63.0400        12
    63.1000        16
    63.1600        18
    63.2200        16
    63.2800        12
    63.3400        10
    63.4000         8
    63.4600        20
    63.5200         8
    63.5800        18
    63.6400        14
    63.7000        16
    63.7600        14
    63.8200         6
    63.8800        20
    63.9400        22
    64.0000        14
    64.0600        18
    64.1200        10
    64.1800        12
    64.2400        18
    64.3000        20
    64.3600        16
    64.4200        18
    64.4800        16
    64.5400        12
    64.6000        18
    64.6600        28
    64.7200        32
    64.7800        34
    64.8400        44
    64.9000        52
    64.9600        40
    65.0200        50
    65.0800        48
    65.1400        58
    65.2000        38
    65.2600        36
    65.3200        32
    65.3800        38
    65.4400        28
    65.5000        32
    65.5600        28
    65.6200        22
    65.6800        22
    65.7400        30
    65.8000        24
    65.8600        30
    65.9200        38
    65.9800        34
    66.0400        46
    66.1000        46
    66.1600        52
    66.2200        60
    66.2800        84
    66.3400        66
    66.4000        92
    66.4600        90
    66.5200        92
    66.5800        78
    66.6400        60
    66.7000        54
    66.7600        44
    66.8200        40
    66.8800        26
    66.9400        22
    67.0000        18
    67.0600        24
    67.1200        18
    67.1800        16
    67.2400        10
    67.3000        10
    67.3600        18
    67.4200        22
    67.4800        18
    67.5400         6
    67.6000        14
    67.6600        12
    67.7200        10
    67.7800        14
    67.8400        14
    67.9000        10
    67.9600        12
    68.0200        10
    68.0800        10
    68.1400        12
    68.2000        14
    68.2600        16
    68.3200        12
    68.3800        12
    68.4400        14
    68.5000         8
    68.5600        12
    68.6200        14
    68.6800        16
    68.7400         6
    68.8000        22
    68.8600        20
    68.9200        18
    68.9800        10
    69.0400        16
    69.1000        16
    69.1600        20
    69.2200        20
    69.2800        10
    69.3400        14
    69.4000         8
    69.4600        24
    69.5200        20
    69.5800         6
    69.6400        12
    69.7000         6
    69.7600        18
    69.8200        14
    69.8800        24
    69.9400        22
    70.0000        18
    70.0600        24
    70.1200        24
    70.1800        16
    70.2400        14
    70.3000        28
    70.3600        18
    70.4200        22
    70.4800        18
    70.5400        28
    70.6000        20
    70.6600        16
    70.7200        10
    70.7800        20
    70.8400        30
    70.9000        18
    70.9600        20
    71.0200        20
    71.0800        28
    71.1400        20
    71.2000        22
    71.2600        24
    71.3200        20
    71.3800        28
    71.4400        20
    71.5000        24
    71.5600        28
    71.6200        26
    71.6800        18
    71.7400        18
    71.8000        32
    71.8600        24
    71.9200        20
    71.9800        20
    72.0400        14
    72.1000        18
    72.1600        14
    72.2200        16
    72.2800        18
    72.3400        14
    72.4000        10
    72.4600        18
    72.5200        18
    72.5800        16
    72.6400        26
    72.7000        14
    72.7600        26
    72.8200        22
    72.8800        22
    72.9400        18
    73.0000        20
    73.0600        14
    73.1200        34
    73.1800        36
    73.2400        46
    73.3000        54
    73.3600        76
    73.4200        54
    73.4800        60
    73.5400        48
    73.6000        36
    73.6600        42
    73.7200        32
    73.7800        26
    73.8400        28
    73.9000        18
    73.9600        14
    74.0200        16
    74.0800        20
    74.1400        18
    74.2000        14
    74.2600        20
    74.3200        16
    74.3800        20
    74.4400        12
    74.5000        16
    74.5600        18
    74.6200        10
    74.6800        12
    74.7400        14
    74.8000        18
    74.8600        14
    74.9200        16
    74.9800        16
    75.0400        14
    75.1000        12
    75.1600        10
    75.2200         8
    75.2800        22
    75.3400        16
    75.4000        18
    75.4600        16
    75.5200        22
    75.5800        14
    75.6400        20
    75.7000        18
    75.7600        14
    75.8200        10
    75.8800        18
    75.9400        12
    76.0000        14
    76.0600        22
    76.1200        10
    76.1800        12
    76.2400         8
    76.3000        10
    76.3600        12
    76.4200        14
    76.4800        20
    76.5400         8
    76.6000        10
    76.6600        12
    76.7200        14
    76.7800        14
    76.8400        10
    76.9000        14
    76.9600        16
    77.0200         8
    77.0800         8
    77.1400        22
    77.2000        12
    77.2600        12
    77.3200        12
    77.3800        14
    77.4400        18
    77.5000        20
    77.5600        20
    77.6200        20
    77.6800        30
    77.7400        28
    77.8000        24
    77.8600        40
    77.9200        38
    77.9800        60
    78.0400        44
    78.1000        64
    78.1600        58
    78.2200        62
    78.2800        70
    78.3400        40
    78.4000        36
    78.4600        30
    78.5200        30
    78.5800        18
    78.6400        22
    78.7000        22
    78.7600        20
    78.8200        30
    78.8800        20
    78.9400        14
    79.0000        16
    79.0600        16
    79.1200        12
    79.1800        16
    79.2400        12
    79.3000        20
    79.3600         8
    79.4200        12
    79.4800        12
    79.5400        18
    79.6000         8
    79.6600        10
    79.7200        10
    79.7800        16
    79.8400        16
    79.9000        12
    79.9600        10
    80.0200        14
    80.0800         8
    80.1400        12
    80.2000         8
    80.2600        12
    80.3200         8
    80.3800        12
    80.4400        12
    80.5000        22
    80.5600        10
    80.6200         8
    80.6800        14
    80.7400        10
    80.8000        16
    80.8600         6
    80.9200         8
    80.9800        16
    81.0400        14
    81.1000        14
    81.1600        10
    81.2200        18
    81.2800        18
    81.3400        12
    81.4000        14
    81.4600        16
    81.5200        12
    81.5800        12
    81.6400        12
    81.7000        18
    81.7600        20
    81.8200        16
    81.8800        20
    81.9400        18
    82.0000        26
    82.0600        20
    82.1200        22
    82.1800        20
    82.2400        22
    82.3000        20
    82.3600        24
    82.4200        24
    82.4800        18
    82.5400        28
    82.6000        14
    82.6600        12
    82.7200        18
    82.7800        10
    82.8400        16
    82.9000        16
    82.9600        12
    83.0200        16
    83.0800        12
    83.1400        10
    83.2000        20
    83.2600        10
    83.3200        10
    83.3800         8
    83.4400        16
    83.5000        16
    83.5600        16
    83.6200        10
    83.6800         8
    83.7400        12
    83.8000        20
    83.8600        12
    83.9200        14
    83.9800        10
    84.0400         6
    84.1000         8
    84.1600         8
    84.2200        18
    84.2800        10
    84.3400        14
    84.4000         8
    84.4600        12
    84.5200        16
    84.5800        18
    84.6400        16
    84.7000         8
    84.7600         8
    84.8200         6
    84.8800         8
    84.9400        16
    85.0000         8
    85.0600        12
    85.1200         8
    85.1800        14
    85.2400        14
    85.3000         6
    85.3600        16
    85.4200        14
    85.4800         6
    85.5400         8
    85.6000         8
    85.6600        14
    85.7200        10
    85.7800        10
    85.8400        16
    85.9000         8
    85.9600        16
    86.0200         8
    86.0800        10
    86.1400         8
    86.2000        10
    86.2600         8
    86.3200        14
    86.3800         6
    86.4400        10
    86.5000         8
    86.5600        16
    86.6200        14
    86.6800         8
    86.7400         8
    86.8000        12
    86.8600        12
    86.9200        18
    86.9800        14
    87.0400        20
    87.1000        16
    87.1600        20
    87.2200        24
    87.2800        20
    87.3400        18
    87.4000        28
    87.4600        24
    87.5200        12
    87.5800        16
    87.6400        14
    87.7000        22
    87.7600        14
    87.8200        12
    87.8800        12
    87.9400        10
    88.0000         6
    88.0600        12
    88.1200         8
    88.1800         8
    88.2400         6
    88.3000         4
    88.3600        16
    88.4200         8
    88.4800        14
    88.5400        12
    88.6000        10
    88.6600        12
    88.7200         8
    88.7800        12
    88.8400        10
    88.9000         8
    88.9600        10
    89.0200         6
    89.0800        10
    89.1400         6
    89.2000         8
    89.2600         8
    89.3200        10
    89.3800        18
    89.4400        10
    89.5000         8
    89.5600         8
    89.6200        12
    89.6800         8
    89.7400        10
    89.8000         8
    89.8600        10
    89.9200        16
    89.9800        10
    90.0000        12